##TITLE=No Description
##DATA TYPE=INFRARED SPECTRUM
##XUNITS=1/CM
##YUNITS=%T
399.460154  	33.336802 
400.897061  	33.120667 
402.333968  	33.850370 
403.770875  	33.393514 
405.207782  	33.316968 
406.644689  	34.389404 
408.081596  	33.714287 
409.518503  	33.444360 
410.955410  	33.435256 
412.392317  	32.838525 
413.829224  	33.663647 
415.266131  	33.727861 
416.703038  	33.337612 
418.139945  	34.267886 
419.576852  	33.402420 
421.013759  	33.263782 
422.450666  	33.116083 
423.887574  	32.981044 
425.324481  	34.174528 
426.761388  	33.674642 
428.198295  	32.620772 
429.635202  	33.418887 
431.072109  	33.489904 
432.509016  	33.118400 
433.945923  	33.585325 
435.382830  	33.450806 
436.819737  	33.510736 
438.256644  	33.251754 
439.693551  	32.916155 
441.130458  	33.949993 
442.567365  	34.478269 
444.004272  	34.241019 
445.441179  	34.577826 
446.878086  	34.345960 
448.314993  	33.959532 
449.751900  	33.677581 
451.188807  	33.203935 
452.625714  	33.335815 
454.062621  	33.689008 
455.499528  	33.879642 
456.936435  	34.190660 
458.373342  	34.289850 
459.810249  	34.377209 
461.247156  	34.109336 
462.684063  	33.795051 
464.120970  	33.987961 
465.557877  	34.113748 
466.994784  	34.285897 
468.431691  	34.372945 
469.868598  	34.144658 
471.305505  	34.131677 
472.742413  	34.171011 
474.179320  	34.488343 
475.616227  	34.726600 
477.053134  	34.115288 
478.490041  	33.847566 
479.926948  	34.204030 
481.363855  	34.229680 
482.800762  	34.246064 
484.237669  	34.299485 
485.674576  	34.339933 
487.111483  	34.547721 
488.548390  	34.527466 
489.985297  	34.561996 
491.422204  	34.493844 
492.859111  	34.342342 
494.296018  	34.787344 
495.732925  	34.990421 
497.169832  	34.969976 
498.606739  	35.176132 
500.043646  	34.687534 
501.480553  	34.138230 
502.917460  	34.509514 
504.354367  	34.672411 
505.791274  	34.691466 
507.228181  	34.913773 
508.665088  	34.910906 
510.101995  	34.912602 
511.538902  	34.915204 
512.975809  	34.885665 
514.412716  	35.046019 
515.849623  	35.236135 
517.286530  	35.316327 
518.723437  	35.228770 
520.160344  	35.266044 
521.597251  	35.497004 
523.034159  	35.357095 
524.471066  	35.117715 
525.907973  	35.247188 
527.344880  	35.423703 
528.781787  	35.550213 
530.218694  	35.577239 
531.655601  	35.582976 
533.092508  	35.816327 
534.529415  	35.839183 
535.966322  	35.657585 
537.403229  	35.811499 
538.840136  	36.051793 
540.277043  	36.168551 
541.713950  	36.283740 
543.150857  	36.307284 
544.587764  	36.224767 
546.024671  	36.173552 
547.461578  	36.354297 
548.898485  	36.522226 
550.335392  	36.414187 
551.772299  	36.514529 
553.209206  	36.793362 
554.646113  	36.841759 
556.083020  	36.920915 
557.519927  	37.015571 
558.956834  	36.956112 
560.393741  	37.008465 
561.830648  	37.140336 
563.267555  	37.310767 
564.704462  	37.522162 
566.141369  	37.566367 
567.578276  	37.584271 
569.015183  	37.714810 
570.452090  	37.795425 
571.888997  	37.867423 
573.325905  	37.934180 
574.762812  	37.972807 
576.199719  	38.129188 
577.636626  	38.268888 
579.073533  	38.253388 
580.510440  	38.317132 
581.947347  	38.531678 
583.384254  	38.666791 
584.821161  	38.715713 
586.258068  	38.829364 
587.694975  	38.984500 
589.131882  	39.102913 
590.568789  	39.197324 
592.005696  	39.296697 
593.442603  	39.395191 
594.879510  	39.475697 
596.316417  	39.560326 
597.753324  	39.681691 
599.190231  	39.818780 
600.627138  	39.993126 
602.064045  	40.183463 
603.500952  	40.313658 
604.937859  	40.436396 
606.374766  	40.553613 
607.811673  	40.678149 
609.248580  	40.808103 
610.685487  	40.913168 
612.122394  	40.993984 
613.559301  	41.124403 
614.996208  	41.315246 
616.433115  	41.466904 
617.870022  	41.477017 
619.306929  	41.549527 
620.743836  	41.785660 
622.180744  	41.952858 
623.617651  	42.069048 
625.054558  	42.277397 
626.491465  	42.442414 
627.928372  	42.564039 
629.365279  	42.755509 
630.802186  	42.924249 
632.239093  	42.996374 
633.676000  	43.052008 
635.112907  	43.211087 
636.549814  	43.427577 
637.986721  	43.539272 
639.423628  	43.610241 
640.860535  	43.736498 
642.297442  	43.873697 
643.734349  	44.022347 
645.171256  	44.186927 
646.608163  	44.335727 
648.045070  	44.487059 
649.481977  	44.696684 
650.918884  	44.880721 
652.355791  	45.007492 
653.792698  	45.154071 
655.229605  	45.311340 
656.666512  	45.457594 
658.103419  	45.671642 
659.540326  	45.911357 
660.977233  	46.075976 
662.414140  	46.251938 
663.851047  	46.437244 
665.287954  	46.644736 
666.724861  	46.957238 
668.161768  	46.911825 
669.598675  	46.935350 
671.035582  	47.057031 
672.472490  	47.308724 
673.909397  	47.505001 
675.346304  	47.706684 
676.783211  	47.921085 
678.220118  	48.002592 
679.657025  	48.159499 
681.093932  	48.425960 
682.530839  	48.613909 
683.967746  	48.785549 
685.404653  	48.998864 
686.841560  	49.228707 
688.278467  	49.478429 
689.715374  	49.633919 
691.152281  	49.777075 
692.589188  	50.034451 
694.026095  	50.339301 
695.463002  	50.611756 
696.899909  	50.802751 
698.336816  	50.973162 
699.773723  	51.229419 
701.210630  	51.454193 
702.647537  	51.631616 
704.084444  	51.903547 
705.521351  	52.139882 
706.958258  	52.294265 
708.395165  	52.511359 
709.832072  	52.758804 
711.268979  	52.967162 
712.705886  	53.163327 
714.142793  	53.359657 
715.579700  	53.573012 
717.016607  	53.776491 
718.453514  	53.959786 
719.890421  	54.159517 
721.327328  	54.382716 
722.764236  	54.632348 
724.201143  	54.859925 
725.638050  	55.046751 
727.074957  	55.265866 
728.511864  	55.488804 
729.948771  	55.679472 
731.385678  	55.902479 
732.822585  	56.157179 
734.259492  	56.406778 
735.696399  	56.655614 
737.133306  	56.913824 
738.570213  	57.144997 
740.007120  	57.295705 
741.444027  	57.456490 
742.880934  	57.728081 
744.317841  	58.019852 
745.754748  	58.284730 
747.191655  	58.544613 
748.628562  	58.772903 
750.065469  	59.014221 
751.502376  	59.230707 
752.939283  	59.419272 
754.376190  	59.735251 
755.813097  	60.055598 
757.250004  	60.235180 
758.686911  	60.461031 
760.123818  	60.756346 
761.560725  	61.007678 
762.997632  	61.239575 
764.434539  	61.449315 
765.871446  	61.669459 
767.308353  	61.953007 
768.745260  	62.234839 
770.182167  	62.474093 
771.619075  	62.702245 
773.055982  	62.949534 
774.492889  	63.209615 
775.929796  	63.445323 
777.366703  	63.663936 
778.803610  	63.914347 
780.240517  	64.220238 
781.677424  	64.524171 
783.114331  	64.769485 
784.551238  	64.993992 
785.988145  	65.209171 
787.425052  	65.440749 
788.861959  	65.753459 
790.298866  	66.060299 
791.735773  	66.303822 
793.172680  	66.566554 
794.609587  	66.843610 
796.046494  	67.120102 
797.483401  	67.407634 
798.920308  	67.657183 
800.357215  	67.866043 
801.794122  	68.086155 
803.231029  	68.359134 
804.667936  	68.650403 
806.104843  	68.900485 
807.541750  	69.161317 
808.978657  	69.444810 
810.415564  	69.709721 
811.852471  	69.976959 
813.289378  	70.226196 
814.726285  	70.486668 
816.163192  	70.794265 
817.600099  	71.059733 
819.037006  	71.311825 
820.473913  	71.614887 
821.910821  	71.896018 
823.347728  	72.128583 
824.784635  	72.347514 
826.221542  	72.611681 
827.658449  	72.917539 
829.095356  	73.187991 
830.532263  	73.473692 
831.969170  	73.771126 
833.406077  	73.994802 
834.842984  	74.232186 
836.279891  	74.506139 
837.716798  	74.750228 
839.153705  	75.002038 
840.590612  	75.264146 
842.027519  	75.532384 
843.464426  	75.809201 
844.901333  	76.065211 
846.338240  	76.342669 
847.775147  	76.651697 
849.212054  	76.944035 
850.648961  	77.199290 
852.085868  	77.416868 
853.522775  	77.650712 
854.959682  	77.915840 
856.396589  	78.181737 
857.833496  	78.445954 
859.270403  	78.690909 
860.707310  	78.950035 
862.144217  	79.227186 
863.581124  	79.482670 
865.018031  	79.764341 
866.454938  	80.041145 
867.891845  	80.302140 
869.328752  	80.592619 
870.765660  	80.799081 
872.202567  	80.978431 
873.639474  	81.255229 
875.076381  	81.509560 
876.513288  	81.746575 
877.950195  	81.996901 
879.387102  	82.203533 
880.824009  	82.433984 
882.260916  	82.664277 
883.697823  	82.895740 
885.134730  	83.173392 
886.571637  	83.390990 
888.008544  	83.595480 
889.445451  	83.815590 
890.882358  	83.981719 
892.319265  	84.195457 
893.756172  	84.411239 
895.193079  	84.584684 
896.629986  	84.822208 
898.066893  	85.038300 
899.503800  	85.225876 
900.940707  	85.437797 
902.377614  	85.619810 
903.814521  	85.826399 
905.251428  	86.001597 
906.688335  	86.134962 
908.125242  	86.347609 
909.562149  	86.510878 
910.999056  	86.621586 
912.435963  	86.800851 
913.872870  	86.985971 
915.309777  	87.216612 
916.746684  	87.440009 
918.183591  	87.581452 
919.620498  	87.773319 
921.057406  	87.954634 
922.494313  	88.099178 
923.931220  	88.283547 
925.368127  	88.420990 
926.805034  	88.582806 
928.241941  	88.787219 
929.678848  	88.928755 
931.115755  	89.077462 
932.552662  	89.187001 
933.989569  	89.277795 
935.426476  	89.453389 
936.863383  	89.573139 
938.300290  	89.683517 
939.737197  	89.858583 
941.174104  	89.955314 
942.611011  	90.045275 
944.047918  	90.174099 
945.484825  	90.287390 
946.921732  	90.429305 
948.358639  	90.539730 
949.795546  	90.629433 
951.232453  	90.747864 
952.669360  	90.847429 
954.106267  	90.969008 
955.543174  	91.075319 
956.980081  	91.147654 
958.416988  	91.265149 
959.853895  	91.376016 
961.290802  	91.508000 
962.727709  	91.644430 
964.164616  	91.682473 
965.601523  	91.756052 
967.038430  	91.865073 
968.475337  	91.916311 
969.912244  	92.013863 
971.349152  	92.134333 
972.786059  	92.247651 
974.222966  	92.356019 
975.659873  	92.389790 
977.096780  	92.452418 
978.533687  	92.546223 
979.970594  	92.587402 
981.407501  	92.668932 
982.844408  	92.751061 
984.281315  	92.786585 
985.718222  	92.826241 
987.155129  	92.856058 
988.592036  	92.946986 
990.028943  	93.056324 
991.465850  	93.072951 
992.902757  	93.078579 
994.339664  	93.077686 
995.776571  	93.082807 
997.213478  	93.142998 
998.650385  	93.159426 
1000.087292  	93.157622 
1001.524199  	93.180729 
1002.961106  	93.172595 
1004.398013  	93.183637 
1005.834920  	93.210630 
1007.271827  	93.234619 
1008.708734  	93.271519 
1010.145641  	93.282757 
1011.582548  	93.342246 
1013.019455  	93.445802 
1014.456362  	93.487431 
1015.893269  	93.524493 
1017.330176  	93.572754 
1018.767083  	93.614777 
1020.203991  	93.647028 
1021.640898  	93.611432 
1023.077805  	93.606527 
1024.514712  	93.666443 
1025.951619  	93.684544 
1027.388526  	93.686279 
1028.825433  	93.651057 
1030.262340  	93.580905 
1031.699247  	93.542589 
1033.136154  	93.477419 
1034.573061  	93.436017 
1036.009968  	93.465180 
1037.446875  	93.479161 
1038.883782  	93.496629 
1040.320689  	93.498245 
1041.757596  	93.507420 
1043.194503  	93.602407 
1044.631410  	93.654187 
1046.068317  	93.665407 
1047.505224  	93.747687 
1048.942131  	93.833630 
1050.379038  	93.901310 
1051.815945  	93.934493 
1053.252852  	93.951136 
1054.689759  	94.019700 
1056.126666  	94.067257 
1057.563573  	94.118209 
1059.000480  	94.187930 
1060.437387  	94.194131 
1061.874294  	94.244155 
1063.311201  	94.311675 
1064.748108  	94.313848 
1066.185015  	94.365751 
1067.621922  	94.404831 
1069.058829  	94.395471 
1070.495737  	94.405384 
1071.932644  	94.378803 
1073.369551  	94.394180 
1074.806458  	94.462153 
1076.243365  	94.480391 
1077.680272  	94.517900 
1079.117179  	94.552883 
1080.554086  	94.549028 
1081.990993  	94.542685 
1083.427900  	94.513730 
1084.864807  	94.540936 
1086.301714  	94.585031 
1087.738621  	94.551083 
1089.175528  	94.532526 
1090.612435  	94.521894 
1092.049342  	94.531759 
1093.486249  	94.586896 
1094.923156  	94.577359 
1096.360063  	94.589138 
1097.796970  	94.646141 
1099.233877  	94.654023 
1100.670784  	94.706496 
1102.107691  	94.740406 
1103.544598  	94.710376 
1104.981505  	94.730852 
1106.418412  	94.730854 
1107.855319  	94.751123 
1109.292226  	94.838720 
1110.729133  	94.846320 
1112.166040  	94.825734 
1113.602947  	94.817601 
1115.039854  	94.785865 
1116.476761  	94.791512 
1117.913668  	94.768628 
1119.350575  	94.724418 
1120.787483  	94.743253 
1122.224390  	94.750014 
1123.661297  	94.738381 
1125.098204  	94.734652 
1126.535111  	94.735167 
1127.972018  	94.744634 
1129.408925  	94.692998 
1130.845832  	94.645341 
1132.282739  	94.678884 
1133.719646  	94.701120 
1135.156553  	94.696163 
1136.593460  	94.660729 
1138.030367  	94.616687 
1139.467274  	94.630155 
1140.904181  	94.628435 
1142.341088  	94.618550 
1143.777995  	94.615578 
1145.214902  	94.542086 
1146.651809  	94.504492 
1148.088716  	94.523847 
1149.525623  	94.505949 
1150.962530  	94.493070 
1152.399437  	94.453993 
1153.836344  	94.418129 
1155.273251  	94.459184 
1156.710158  	94.475840 
1158.147065  	94.481334 
1159.583972  	94.499975 
1161.020879  	94.476915 
1162.457786  	94.479787 
1163.894693  	94.461838 
1165.331600  	94.390563 
1166.768507  	94.381548 
1168.205414  	94.393314 
1169.642322  	94.384203 
1171.079229  	94.371304 
1172.516136  	94.328199 
1173.953043  	94.308407 
1175.389950  	94.300445 
1176.826857  	94.273088 
1178.263764  	94.281975 
1179.700671  	94.298758 
1181.137578  	94.301777 
1182.574485  	94.279861 
1184.011392  	94.222579 
1185.448299  	94.209110 
1186.885206  	94.212653 
1188.322113  	94.202215 
1189.759020  	94.224899 
1191.195927  	94.223034 
1192.632834  	94.218988 
1194.069741  	94.243869 
1195.506648  	94.222083 
1196.943555  	94.201189 
1198.380462  	94.192622 
1199.817369  	94.169720 
1201.254276  	94.185873 
1202.691183  	94.185029 
1204.128090  	94.159248 
1205.564997  	94.155996 
1207.001904  	94.138040 
1208.438811  	94.139280 
1209.875718  	94.129319 
1211.312625  	94.079704 
1212.749532  	94.096344 
1214.186439  	94.124997 
1215.623346  	94.115561 
1217.060253  	94.118294 
1218.497160  	94.083599 
1219.934068  	94.068542 
1221.370975  	94.110827 
1222.807882  	94.102710 
1224.244789  	94.066562 
1225.681696  	94.042574 
1227.118603  	94.031597 
1228.555510  	94.048041 
1229.992417  	94.041962 
1231.429324  	94.029068 
1232.866231  	94.020419 
1234.303138  	93.991251 
1235.740045  	93.996668 
1237.176952  	93.995916 
1238.613859  	93.957870 
1240.050766  	93.949592 
1241.487673  	93.938598 
1242.924580  	93.923749 
1244.361487  	93.925520 
1245.798394  	93.909636 
1247.235301  	93.905212 
1248.672208  	93.888695 
1250.109115  	93.852671 
1251.546022  	93.849986 
1252.982929  	93.832518 
1254.419836  	93.811866 
1255.856743  	93.818768 
1257.293650  	93.799707 
1258.730557  	93.772070 
1260.167464  	93.743724 
1261.604371  	93.744010 
1263.041278  	93.794622 
1264.478185  	93.784565 
1265.915092  	93.741569 
1267.351999  	93.737673 
1268.788907  	93.713850 
1270.225814  	93.701093 
1271.662721  	93.704044 
1273.099628  	93.703465 
1274.536535  	93.733165 
1275.973442  	93.728811 
1277.410349  	93.719435 
1278.847256  	93.737858 
1280.284163  	93.701747 
1281.721070  	93.694277 
1283.157977  	93.743837 
1284.594884  	93.761121 
1286.031791  	93.747408 
1287.468698  	93.678604 
1288.905605  	93.651435 
1290.342512  	93.722993 
1291.779419  	93.747759 
1293.216326  	93.771832 
1294.653233  	93.803176 
1296.090140  	93.768278 
1297.527047  	93.792682 
1298.963954  	93.825764 
1300.400861  	93.820484 
1301.837768  	93.867171 
1303.274675  	93.907295 
1304.711582  	93.899441 
1306.148489  	93.911316 
1307.585396  	93.890951 
1309.022303  	93.897458 
1310.459210  	93.909873 
1311.896117  	93.864830 
1313.333024  	93.843380 
1314.769931  	93.863177 
1316.206838  	93.867569 
1317.643745  	93.849990 
1319.080653  	93.801003 
1320.517560  	93.820689 
1321.954467  	93.870903 
1323.391374  	93.869246 
1324.828281  	93.885531 
1326.265188  	93.886290 
1327.702095  	93.880271 
1329.139002  	93.892095 
1330.575909  	93.855551 
1332.012816  	93.866823 
1333.449723  	93.894722 
1334.886630  	93.812248 
1336.323537  	93.733202 
1337.760444  	93.580558 
1339.197351  	93.326953 
1340.634258  	93.362427 
1342.071165  	93.593322 
1343.508072  	93.687785 
1344.944979  	93.680606 
1346.381886  	93.666387 
1347.818793  	93.659697 
1349.255700  	93.635960 
1350.692607  	93.621088 
1352.129514  	93.640840 
1353.566421  	93.594378 
1355.003328  	93.522954 
1356.440235  	93.505031 
1357.877142  	93.501204 
1359.314049  	93.478310 
1360.750956  	93.390185 
1362.187863  	93.223017 
1363.624770  	93.165881 
1365.061677  	93.249398 
1366.498584  	93.265978 
1367.935491  	93.178613 
1369.372399  	93.095621 
1370.809306  	93.120781 
1372.246213  	93.079609 
1373.683120  	92.888171 
1375.120027  	92.782043 
1376.556934  	92.792084 
1377.993841  	92.717358 
1379.430748  	92.646194 
1380.867655  	92.630510 
1382.304562  	92.664827 
1383.741469  	92.679707 
1385.178376  	92.614201 
1386.615283  	92.503923 
1388.052190  	92.455094 
1389.489097  	92.479044 
1390.926004  	92.510155 
1392.362911  	92.557959 
1393.799818  	92.583396 
1395.236725  	92.529413 
1396.673632  	92.493487 
1398.110539  	92.497557 
1399.547446  	92.505890 
1400.984353  	92.611651 
1402.421260  	92.701027 
1403.858167  	92.685719 
1405.295074  	92.664101 
1406.731981  	92.768264 
1408.168888  	92.856813 
1409.605795  	92.867420 
1411.042702  	92.870713 
1412.479609  	92.956137 
1413.916516  	93.078539 
1415.353423  	93.062047 
1416.790330  	92.986201 
1418.227238  	92.988934 
1419.664145  	93.031465 
1421.101052  	93.077655 
1422.537959  	93.051857 
1423.974866  	93.016466 
1425.411773  	93.099210 
1426.848680  	93.160192 
1428.285587  	93.169384 
1429.722494  	93.197346 
1431.159401  	93.217726 
1432.596308  	93.230811 
1434.033215  	93.227269 
1435.470122  	93.197681 
1436.907029  	93.120516 
1438.343936  	93.123358 
1439.780843  	93.135521 
1441.217750  	93.180421 
1442.654657  	93.178791 
1444.091564  	93.177356 
1445.528471  	93.212373 
1446.965378  	93.240588 
1448.402285  	93.358582 
1449.839192  	93.433223 
1451.276099  	93.370529 
1452.713006  	93.286580 
1454.149913  	93.266997 
1455.586820  	93.439605 
1457.023727  	93.293734 
1458.460634  	92.821450 
1459.897541  	92.845919 
1461.334448  	93.034568 
1462.771355  	93.125323 
1464.208262  	93.193751 
1465.645169  	93.251698 
1467.082076  	93.260483 
1468.518984  	93.276725 
1469.955891  	93.280988 
1471.392798  	93.210423 
1472.829705  	92.970559 
1474.266612  	92.903099 
1475.703519  	92.780606 
1477.140426  	92.706922 
1478.577333  	92.822017 
1480.014240  	92.835342 
1481.451147  	92.780458 
1482.888054  	92.942389 
1484.324961  	93.073383 
1485.761868  	93.009325 
1487.198775  	92.873246 
1488.635682  	92.629337 
1490.072589  	92.430358 
1491.509496  	92.548559 
1492.946403  	92.608952 
1494.383310  	92.636210 
1495.820217  	92.613548 
1497.257124  	92.431064 
1498.694031  	92.397675 
1500.130938  	92.415937 
1501.567845  	92.327591 
1503.004752  	92.311054 
1504.441659  	92.451975 
1505.878566  	92.468002 
1507.315473  	91.468673 
1508.752380  	91.275966 
1510.189287  	91.534844 
1511.626194  	91.627004 
1513.063101  	91.662901 
1514.500008  	91.673807 
1515.936915  	91.637174 
1517.373822  	91.708917 
1518.810730  	91.736788 
1520.247637  	91.549479 
1521.684544  	91.237833 
1523.121451  	91.158178 
1524.558358  	91.083497 
1525.995265  	91.048146 
1527.432172  	90.927285 
1528.869079  	90.900692 
1530.305986  	90.952610 
1531.742893  	90.870017 
1533.179800  	90.792206 
1534.616707  	90.772771 
1536.053614  	90.670021 
1537.490521  	90.692879 
1538.927428  	90.624417 
1540.364335  	90.135521 
1541.801242  	89.982191 
1543.238149  	89.709139 
1544.675056  	89.380258 
1546.111963  	89.410838 
1547.548870  	89.474771 
1548.985777  	89.322376 
1550.422684  	89.098235 
1551.859591  	89.138825 
1553.296498  	89.195830 
1554.733405  	88.940889 
1556.170312  	88.698318 
1557.607219  	88.703310 
1559.044126  	88.280183 
1560.481033  	88.013284 
1561.917940  	87.811667 
1563.354847  	87.649717 
1564.791754  	87.580300 
1566.228661  	87.404838 
1567.665569  	87.458886 
1569.102476  	87.566919 
1570.539383  	87.290537 
1571.976290  	87.123775 
1573.413197  	87.001439 
1574.850104  	86.839598 
1576.287011  	86.644958 
1577.723918  	86.348534 
1579.160825  	86.116792 
1580.597732  	85.929253 
1582.034639  	85.673074 
1583.471546  	85.514277 
1584.908453  	85.346762 
1586.345360  	85.063296 
1587.782267  	84.945287 
1589.219174  	84.742091 
1590.656081  	84.419741 
1592.092988  	84.095044 
1593.529895  	83.746639 
1594.966802  	83.494419 
1596.403709  	83.158009 
1597.840616  	82.731254 
1599.277523  	82.457803 
1600.714430  	82.046691 
1602.151337  	81.541582 
1603.588244  	81.115522 
1605.025151  	80.658248 
1606.462058  	80.230199 
1607.898965  	79.775260 
1609.335872  	79.257864 
1610.772779  	78.856501 
1612.209686  	78.390606 
1613.646593  	77.861383 
1615.083500  	77.461757 
1616.520407  	76.779900 
1617.957315  	76.169865 
1619.394222  	75.761823 
1620.831129  	75.207442 
1622.268036  	74.786268 
1623.704943  	74.346944 
1625.141850  	73.959119 
1626.578757  	73.735109 
1628.015664  	73.414851 
1629.452571  	73.252538 
1630.889478  	73.147257 
1632.326385  	72.812348 
1633.763292  	72.671632 
1635.200199  	72.783822 
1636.637106  	72.794578 
1638.074013  	72.691009 
1639.510920  	72.529542 
1640.947827  	72.729250 
1642.384734  	73.072608 
1643.821641  	73.214626 
1645.258548  	73.588505 
1646.695455  	74.121897 
1648.132362  	74.307441 
1649.569269  	74.477400 
1651.006176  	74.669789 
1652.443083  	75.038558 
1653.879990  	75.914815 
1655.316897  	75.896947 
1656.753804  	76.022713 
1658.190711  	76.612895 
1659.627618  	77.051118 
1661.064525  	77.513430 
1662.501432  	78.075004 
1663.938339  	78.604196 
1665.375246  	79.088200 
1666.812154  	79.518365 
1668.249061  	79.933787 
1669.685968  	80.366008 
1671.122875  	80.826734 
1672.559782  	81.364528 
1673.996689  	81.846791 
1675.433596  	82.277811 
1676.870503  	82.821978 
1678.307410  	83.210682 
1679.744317  	83.600752 
1681.181224  	84.160431 
1682.618131  	84.650391 
1684.055038  	85.141627 
1685.491945  	85.702868 
1686.928852  	85.830114 
1688.365759  	86.226349 
1689.802666  	86.827831 
1691.239573  	87.367072 
1692.676480  	87.957597 
1694.113387  	88.434573 
1695.550294  	88.889542 
1696.987201  	89.264840 
1698.424108  	89.398578 
1699.861015  	89.718189 
1701.297922  	90.130898 
1702.734829  	90.267998 
1704.171736  	90.534287 
1705.608643  	90.846682 
1707.045550  	91.193648 
1708.482457  	91.658036 
1709.919364  	91.998867 
1711.356271  	92.297965 
1712.793178  	92.689924 
1714.230085  	92.985020 
1715.666992  	93.211948 
1717.103900  	93.373243 
1718.540807  	93.558260 
1719.977714  	93.917655 
1721.414621  	94.060812 
1722.851528  	94.293578 
1724.288435  	94.698592 
1725.725342  	95.018601 
1727.162249  	95.343228 
1728.599156  	95.503204 
1730.036063  	95.543180 
1731.472970  	95.722390 
1732.909877  	95.902265 
1734.346784  	95.889953 
1735.783691  	96.099682 
1737.220598  	96.152081 
1738.657505  	96.248383 
1740.094412  	96.384541 
1741.531319  	96.432197 
1742.968226  	96.489552 
1744.405133  	96.627905 
1745.842040  	96.819284 
1747.278947  	97.010291 
1748.715854  	97.054142 
1750.152761  	97.096797 
1751.589668  	97.200144 
1753.026575  	97.364848 
1754.463482  	97.556472 
1755.900389  	97.620512 
1757.337296  	97.619367 
1758.774203  	97.810002 
1760.211110  	97.917617 
1761.648017  	97.966124 
1763.084924  	98.091527 
1764.521831  	98.207856 
1765.958738  	98.351023 
1767.395646  	98.376981 
1768.832553  	98.415183 
1770.269460  	98.625017 
1771.706367  	98.596618 
1773.143274  	98.376343 
1774.580181  	98.435869 
1776.017088  	98.481471 
1777.453995  	98.565011 
1778.890902  	98.631911 
1780.327809  	98.652183 
1781.764716  	98.771787 
1783.201623  	98.811891 
1784.638530  	98.834082 
1786.075437  	98.977905 
1787.512344  	99.023929 
1788.949251  	99.062972 
1790.386158  	99.134762 
1791.823065  	99.090157 
1793.259972  	99.056194 
1794.696879  	98.965046 
1796.133786  	98.896030 
1797.570693  	99.017185 
1799.007600  	99.093998 
1800.444507  	99.073721 
1801.881414  	99.066023 
1803.318321  	99.120144 
1804.755228  	99.241845 
1806.192135  	99.250559 
1807.629042  	99.213372 
1809.065949  	99.305723 
1810.502856  	99.306723 
1811.939763  	99.293230 
1813.376670  	99.391367 
1814.813577  	99.408711 
1816.250485  	99.421838 
1817.687392  	99.444333 
1819.124299  	99.483596 
1820.561206  	99.551471 
1821.998113  	99.567473 
1823.435020  	99.576489 
1824.871927  	99.554250 
1826.308834  	99.484806 
1827.745741  	99.532545 
1829.182648  	99.532557 
1830.619555  	99.450884 
1832.056462  	99.468872 
1833.493369  	99.432573 
1834.930276  	99.498790 
1836.367183  	99.632539 
1837.804090  	99.629000 
1839.240997  	99.703875 
1840.677904  	99.791147 
1842.114811  	99.776741 
1843.551718  	99.901607 
1844.988625  	99.845376 
1846.425532  	99.660503 
1847.862439  	99.710704 
1849.299346  	99.734038 
1850.736253  	99.766382 
1852.173160  	99.856243 
1853.610067  	99.889117 
1855.046974  	99.952432 
1856.483881  	99.985294 
1857.920788  	99.994084 
1859.357695  	100.008339 
1860.794602  	99.943846 
1862.231509  	99.953038 
1863.668416  	100.023911 
1865.105323  	99.996493 
1866.542231  	99.988028 
1867.979138  	99.920154 
1869.416045  	99.811593 
1870.852952  	99.876148 
1872.289859  	99.886770 
1873.726766  	99.940365 
1875.163673  	100.021529 
1876.600580  	100.013236 
1878.037487  	100.119384 
1879.474394  	100.153904 
1880.911301  	100.115583 
1882.348208  	100.167974 
1883.785115  	100.054376 
1885.222022  	100.061972 
1886.658929  	100.211024 
1888.095836  	100.133864 
1889.532743  	100.073905 
1890.969650  	99.972021 
1892.406557  	99.874876 
1893.843464  	100.026170 
1895.280371  	100.043390 
1896.717278  	100.032204 
1898.154185  	100.157934 
1899.591092  	100.144029 
1901.027999  	100.089043 
1902.464906  	100.073531 
1903.901813  	100.068339 
1905.338720  	100.287647 
1906.775627  	100.294461 
1908.212534  	100.153364 
1909.649441  	100.113563 
1911.086348  	99.991680 
1912.523255  	100.162382 
1913.960162  	100.347485 
1915.397069  	100.177830 
1916.833977  	100.180076 
1918.270884  	100.127400 
1919.707791  	100.026323 
1921.144698  	100.066844 
1922.581605  	99.969985 
1924.018512  	99.970798 
1925.455419  	100.131870 
1926.892326  	100.024882 
1928.329233  	100.054872 
1929.766140  	100.147031 
1931.203047  	100.095525 
1932.639954  	100.116478 
1934.076861  	100.111090 
1935.513768  	100.098627 
1936.950675  	100.159957 
1938.387582  	100.135135 
1939.824489  	100.148588 
1941.261396  	100.111519 
1942.698303  	100.052941 
1944.135210  	100.130642 
1945.572117  	100.058684 
1947.009024  	100.055283 
1948.445931  	100.203901 
1949.882838  	100.079676 
1951.319745  	100.177377 
1952.756652  	100.371527 
1954.193559  	100.148380 
1955.630466  	100.175117 
1957.067373  	100.273601 
1958.504280  	100.359570 
1959.941187  	100.514764 
1961.378094  	100.462009 
1962.815001  	100.669820 
1964.251908  	100.781785 
1965.688816  	100.668228 
1967.125723  	100.884867 
1968.562630  	100.648510 
1969.999537  	100.500617 
1971.436444  	100.744815 
1972.873351  	100.688712 
1974.310258  	100.799348 
1975.747165  	100.979201 
1977.184072  	100.718304 
1978.620979  	100.559909 
1980.057886  	100.251985 
1981.494793  	100.044293 
1982.931700  	100.088290 
1984.368607  	99.883930 
1985.805514  	99.938795 
1987.242421  	100.138472 
1988.679328  	99.716940 
1990.116235  	99.564845 
1991.553142  	99.660806 
1992.990049  	99.891847 
1994.426956  	100.295231 
1995.863863  	100.072878 
1997.300770  	99.815149 
1998.737677  	99.801498 
2000.174584  	99.511188 
2001.611491  	99.556435 
2003.048398  	99.661038 
2004.485305  	99.625363 
2005.922212  	100.058717 
2007.359119  	99.897934 
2008.796026  	99.425349 
2010.232933  	99.509274 
2011.669840  	99.361616 
2013.106747  	99.344063 
2014.543654  	99.411144 
2015.980562  	99.163911 
2017.417469  	99.349010 
2018.854376  	99.390859 
2020.291283  	99.233084 
2021.728190  	99.411092 
2023.165097  	99.332084 
2024.602004  	99.371779 
2026.038911  	99.356957 
2027.475818  	99.004876 
2028.912725  	99.321678 
2030.349632  	99.672469 
2031.786539  	99.555808 
2033.223446  	99.408062 
2034.660353  	99.039948 
2036.097260  	99.059561 
2037.534167  	99.188147 
2038.971074  	98.875707 
2040.407981  	99.020819 
2041.844888  	99.211094 
2043.281795  	99.058259 
2044.718702  	99.089244 
2046.155609  	98.901240 
2047.592516  	98.775081 
2049.029423  	98.952803 
2050.466330  	98.928628 
2051.903237  	98.981054 
2053.340144  	98.991150 
2054.777051  	98.850165 
2056.213958  	98.929256 
2057.650865  	98.998868 
2059.087772  	98.989247 
2060.524679  	98.902041 
2061.961586  	98.684937 
2063.398493  	98.627933 
2064.835401  	98.550418 
2066.272308  	98.476557 
2067.709215  	98.621012 
2069.146122  	98.611580 
2070.583029  	98.637529 
2072.019936  	98.732847 
2073.456843  	98.585984 
2074.893750  	98.634064 
2076.330657  	98.748881 
2077.767564  	98.635822 
2079.204471  	98.608488 
2080.641378  	98.546078 
2082.078285  	98.539704 
2083.515192  	98.649211 
2084.952099  	98.540616 
2086.389006  	98.530193 
2087.825913  	98.651973 
2089.262820  	98.623870 
2090.699727  	98.652912 
2092.136634  	98.682764 
2093.573541  	98.754898 
2095.010448  	98.853383 
2096.447355  	98.659366 
2097.884262  	98.572328 
2099.321169  	98.682829 
2100.758076  	98.674899 
2102.194983  	98.720685 
2103.631890  	98.646187 
2105.068797  	98.545032 
2106.505704  	98.704449 
2107.942611  	98.692843 
2109.379518  	98.557344 
2110.816425  	98.504036 
2112.253332  	98.351820 
2113.690239  	98.340625 
2115.127147  	98.484368 
2116.564054  	98.590148 
2118.000961  	98.678255 
2119.437868  	98.596044 
2120.874775  	98.487760 
2122.311682  	98.480469 
2123.748589  	98.509941 
2125.185496  	98.680361 
2126.622403  	98.699435 
2128.059310  	98.583381 
2129.496217  	98.693557 
2130.933124  	98.762346 
2132.370031  	98.803552 
2133.806938  	98.801139 
2135.243845  	98.559690 
2136.680752  	98.616713 
2138.117659  	98.704480 
2139.554566  	98.534640 
2140.991473  	98.733799 
2142.428380  	98.907180 
2143.865287  	98.883488 
2145.302194  	98.962805 
2146.739101  	98.868095 
2148.176008  	98.999206 
2149.612915  	99.183193 
2151.049822  	99.088857 
2152.486729  	99.435828 
2153.923636  	99.641020 
2155.360543  	99.481978 
2156.797450  	99.828448 
2158.234357  	100.010950 
2159.671264  	99.580131 
2161.108171  	99.085191 
2162.545078  	98.993292 
2163.981985  	99.297343 
2165.418893  	99.272913 
2166.855800  	99.345072 
2168.292707  	99.759819 
2169.729614  	99.732282 
2171.166521  	99.810940 
2172.603428  	100.023954 
2174.040335  	99.886337 
2175.477242  	99.946338 
2176.914149  	99.949614 
2178.351056  	99.851260 
2179.787963  	100.004903 
2181.224870  	99.819058 
2182.661777  	99.613273 
2184.098684  	99.712298 
2185.535591  	99.593747 
2186.972498  	99.548438 
2188.409405  	99.690499 
2189.846312  	99.758790 
2191.283219  	99.650193 
2192.720126  	99.394950 
2194.157033  	99.493469 
2195.593940  	99.636695 
2197.030847  	99.381995 
2198.467754  	99.345150 
2199.904661  	99.373762 
2201.341568  	99.249136 
2202.778475  	99.335433 
2204.215382  	99.310520 
2205.652289  	99.210333 
2207.089196  	99.246721 
2208.526103  	99.254753 
2209.963010  	99.439900 
2211.399917  	99.526109 
2212.836824  	99.351480 
2214.273732  	99.353994 
2215.710639  	99.363661 
2217.147546  	99.351281 
2218.584453  	99.399018 
2220.021360  	99.298524 
2221.458267  	99.300519 
2222.895174  	99.326117 
2224.332081  	99.202096 
2225.768988  	99.179443 
2227.205895  	99.151914 
2228.642802  	99.194636 
2230.079709  	99.380248 
2231.516616  	99.441648 
2232.953523  	99.498203 
2234.390430  	99.418301 
2235.827337  	99.227362 
2237.264244  	99.346578 
2238.701151  	99.455981 
2240.138058  	99.382504 
2241.574965  	99.344098 
2243.011872  	99.265858 
2244.448779  	99.280286 
2245.885686  	99.297907 
2247.322593  	99.245949 
2248.759500  	99.424872 
2250.196407  	99.549999 
2251.633314  	99.626738 
2253.070221  	99.759194 
2254.507128  	99.770512 
2255.944035  	99.748298 
2257.380942  	99.740582 
2258.817849  	99.759546 
2260.254756  	99.868422 
2261.691663  	99.909659 
2263.128570  	99.953388 
2264.565478  	100.092409 
2266.002385  	100.071513 
2267.439292  	100.108467 
2268.876199  	100.230613 
2270.313106  	100.276393 
2271.750013  	100.309947 
2273.186920  	100.195514 
2274.623827  	100.143141 
2276.060734  	100.237675 
2277.497641  	100.197199 
2278.934548  	100.112518 
2280.371455  	100.025531 
2281.808362  	99.886261 
2283.245269  	99.799319 
2284.682176  	99.660532 
2286.119083  	99.533804 
2287.555990  	99.460428 
2288.992897  	99.372024 
2290.429804  	99.314366 
2291.866711  	99.258164 
2293.303618  	99.147006 
2294.740525  	99.107119 
2296.177432  	99.096611 
2297.614339  	99.025337 
2299.051246  	98.879840 
2300.488153  	98.764703 
2301.925060  	98.569824 
2303.361967  	98.442022 
2304.798874  	98.327549 
2306.235781  	98.219268 
2307.672688  	98.046605 
2309.109595  	97.907726 
2310.546502  	97.843277 
2311.983409  	97.705953 
2313.420317  	97.647052 
2314.857224  	97.695041 
2316.294131  	97.659701 
2317.731038  	97.561186 
2319.167945  	97.310738 
2320.604852  	96.964763 
2322.041759  	96.651837 
2323.478666  	96.233045 
2324.915573  	96.012605 
2326.352480  	96.170919 
2327.789387  	96.286999 
2329.226294  	96.311902 
2330.663201  	96.405092 
2332.100108  	96.515560 
2333.537015  	96.736233 
2334.973922  	96.929971 
2336.410829  	96.936711 
2337.847736  	96.923174 
2339.284643  	96.889745 
2340.721550  	96.805342 
2342.158457  	96.728764 
2343.595364  	96.571127 
2345.032271  	96.332665 
2346.469178  	96.257883 
2347.906085  	96.440871 
2349.342992  	96.649287 
2350.779899  	96.846524 
2352.216806  	97.216974 
2353.653713  	97.673740 
2355.090620  	97.863018 
2356.527527  	97.942701 
2357.964434  	97.996149 
2359.401341  	97.958155 
2360.838248  	98.088198 
2362.275155  	98.146463 
2363.712063  	98.195653 
2365.148970  	98.513115 
2366.585877  	98.652197 
2368.022784  	98.647714 
2369.459691  	98.761317 
2370.896598  	98.909149 
2372.333505  	98.992154 
2373.770412  	98.895737 
2375.207319  	98.802740 
2376.644226  	98.838627 
2378.081133  	98.878000 
2379.518040  	99.039694 
2380.954947  	99.317002 
2382.391854  	99.691256 
2383.828761  	100.141690 
2385.265668  	100.470942 
2386.702575  	100.704276 
2388.139482  	100.897146 
2389.576389  	100.967833 
2391.013296  	100.979544 
2392.450203  	101.015115 
2393.887110  	101.005549 
2395.324017  	101.002769 
2396.760924  	101.015635 
2398.197831  	100.994313 
2399.634738  	100.960422 
2401.071645  	100.896710 
2402.508552  	100.838069 
2403.945459  	100.791674 
2405.382366  	100.746497 
2406.819273  	100.769535 
2408.256180  	100.773355 
2409.693087  	100.730616 
2411.129994  	100.741806 
2412.566901  	100.726437 
2414.003809  	100.690189 
2415.440716  	100.724774 
2416.877623  	100.789545 
2418.314530  	100.830211 
2419.751437  	100.785566 
2421.188344  	100.775508 
2422.625251  	100.900962 
2424.062158  	100.950689 
2425.499065  	100.921170 
2426.935972  	100.945142 
2428.372879  	100.981453 
2429.809786  	101.051269 
2431.246693  	101.089047 
2432.683600  	101.068977 
2434.120507  	101.095491 
2435.557414  	101.090630 
2436.994321  	101.094528 
2438.431228  	101.171782 
2439.868135  	101.179120 
2441.305042  	101.160986 
2442.741949  	101.161163 
2444.178856  	101.153593 
2445.615763  	101.201520 
2447.052670  	101.203537 
2448.489577  	101.167152 
2449.926484  	101.200507 
2451.363391  	101.209989 
2452.800298  	101.208908 
2454.237205  	101.208933 
2455.674112  	101.177029 
2457.111019  	101.198964 
2458.547926  	101.179265 
2459.984833  	101.101560 
2461.421740  	101.135555 
2462.858648  	101.211749 
2464.295555  	101.242290 
2465.732462  	101.229974 
2467.169369  	101.192562 
2468.606276  	101.211753 
2470.043183  	101.218250 
2471.480090  	101.196102 
2472.916997  	101.248564 
2474.353904  	101.279205 
2475.790811  	101.248167 
2477.227718  	101.240914 
2478.664625  	101.265249 
2480.101532  	101.288819 
2481.538439  	101.256215 
2482.975346  	101.235868 
2484.412253  	101.262019 
2485.849160  	101.243804 
2487.286067  	101.264068 
2488.722974  	101.314647 
2490.159881  	101.314733 
2491.596788  	101.352473 
2493.033695  	101.340419 
2494.470602  	101.288778 
2495.907509  	101.346676 
2497.344416  	101.356770 
2498.781323  	101.301259 
2500.218230  	101.295249 
2501.655137  	101.292442 
2503.092044  	101.349924 
2504.528951  	101.402450 
2505.965858  	101.362947 
2507.402765  	101.356775 
2508.839672  	101.359124 
2510.276579  	101.371054 
2511.713486  	101.425443 
2513.150394  	101.406374 
2514.587301  	101.381536 
2516.024208  	101.401209 
2517.461115  	101.401180 
2518.898022  	101.412458 
2520.334929  	101.409179 
2521.771836  	101.429993 
2523.208743  	101.460802 
2524.645650  	101.388976 
2526.082557  	101.350625 
2527.519464  	101.361588 
2528.956371  	101.341644 
2530.393278  	101.396951 
2531.830185  	101.426397 
2533.267092  	101.407105 
2534.703999  	101.445248 
2536.140906  	101.407492 
2537.577813  	101.359026 
2539.014720  	101.366366 
2540.451627  	101.315981 
2541.888534  	101.352983 
2543.325441  	101.451210 
2544.762348  	101.445593 
2546.199255  	101.438120 
2547.636162  	101.410386 
2549.073069  	101.358010 
2550.509976  	101.385372 
2551.946883  	101.407653 
2553.383790  	101.379273 
2554.820697  	101.337986 
2556.257604  	101.331573 
2557.694511  	101.370630 
2559.131418  	101.344907 
2560.568325  	101.327853 
2562.005232  	101.388695 
2563.442140  	101.380646 
2564.879047  	101.348895 
2566.315954  	101.365722 
2567.752861  	101.386041 
2569.189768  	101.412852 
2570.626675  	101.375965 
2572.063582  	101.340980 
2573.500489  	101.411470 
2574.937396  	101.437638 
2576.374303  	101.391951 
2577.811210  	101.345318 
2579.248117  	101.292023 
2580.685024  	101.307826 
2582.121931  	101.367886 
2583.558838  	101.378096 
2584.995745  	101.352418 
2586.432652  	101.325567 
2587.869559  	101.352374 
2589.306466  	101.390434 
2590.743373  	101.365550 
2592.180280  	101.346379 
2593.617187  	101.353782 
2595.054094  	101.369974 
2596.491001  	101.392148 
2597.927908  	101.382754 
2599.364815  	101.375001 
2600.801722  	101.365713 
2602.238629  	101.342268 
2603.675536  	101.357234 
2605.112443  	101.357281 
2606.549350  	101.343437 
2607.986257  	101.360852 
2609.423164  	101.344284 
2610.860071  	101.341354 
2612.296979  	101.375111 
2613.733886  	101.368305 
2615.170793  	101.371451 
2616.607700  	101.386363 
2618.044607  	101.381669 
2619.481514  	101.390638 
2620.918421  	101.380190 
2622.355328  	101.383361 
2623.792235  	101.417763 
2625.229142  	101.405367 
2626.666049  	101.400400 
2628.102956  	101.441564 
2629.539863  	101.468246 
2630.976770  	101.463147 
2632.413677  	101.423308 
2633.850584  	101.404635 
2635.287491  	101.430455 
2636.724398  	101.438992 
2638.161305  	101.447398 
2639.598212  	101.454222 
2641.035119  	101.437274 
2642.472026  	101.445237 
2643.908933  	101.456622 
2645.345840  	101.440202 
2646.782747  	101.426441 
2648.219654  	101.418866 
2649.656561  	101.410417 
2651.093468  	101.394578 
2652.530375  	101.393238 
2653.967282  	101.408392 
2655.404189  	101.393226 
2656.841096  	101.389493 
2658.278003  	101.416559 
2659.714910  	101.419186 
2661.151817  	101.418320 
2662.588725  	101.405671 
2664.025632  	101.382367 
2665.462539  	101.402796 
2666.899446  	101.404410 
2668.336353  	101.378163 
2669.773260  	101.389014 
2671.210167  	101.386342 
2672.647074  	101.366698 
2674.083981  	101.356876 
2675.520888  	101.340931 
2676.957795  	101.356305 
2678.394702  	101.372691 
2679.831609  	101.351050 
2681.268516  	101.334550 
2682.705423  	101.317072 
2684.142330  	101.309200 
2685.579237  	101.314605 
2687.016144  	101.297902 
2688.453051  	101.306715 
2689.889958  	101.332066 
2691.326865  	101.317532 
2692.763772  	101.303181 
2694.200679  	101.300275 
2695.637586  	101.295151 
2697.074493  	101.294004 
2698.511400  	101.291247 
2699.948307  	101.300413 
2701.385214  	101.297323 
2702.822121  	101.275910 
2704.259028  	101.275389 
2705.695935  	101.278607 
2707.132842  	101.290157 
2708.569749  	101.301241 
2710.006656  	101.281481 
2711.443564  	101.287902 
2712.880471  	101.295616 
2714.317378  	101.262963 
2715.754285  	101.261167 
2717.191192  	101.257076 
2718.628099  	101.222017 
2720.065006  	101.214112 
2721.501913  	101.205589 
2722.938820  	101.198082 
2724.375727  	101.201198 
2725.812634  	101.180424 
2727.249541  	101.183456 
2728.686448  	101.201704 
2730.123355  	101.183458 
2731.560262  	101.162713 
2732.997169  	101.145927 
2734.434076  	101.138409 
2735.870983  	101.145962 
2737.307890  	101.130559 
2738.744797  	101.106937 
2740.181704  	101.091238 
2741.618611  	101.088295 
2743.055518  	101.107746 
2744.492425  	101.101484 
2745.929332  	101.082175 
2747.366239  	101.089130 
2748.803146  	101.077835 
2750.240053  	101.053131 
2751.676960  	101.045078 
2753.113867  	101.036382 
2754.550774  	101.020724 
2755.987681  	100.996504 
2757.424588  	100.983806 
2758.861495  	100.981683 
2760.298402  	100.956441 
2761.735310  	100.932482 
2763.172217  	100.919864 
2764.609124  	100.899214 
2766.046031  	100.883370 
2767.482938  	100.866997 
2768.919845  	100.857219 
2770.356752  	100.859373 
2771.793659  	100.840324 
2773.230566  	100.806173 
2774.667473  	100.778129 
2776.104380  	100.761609 
2777.541287  	100.750084 
2778.978194  	100.734613 
2780.415101  	100.737510 
2781.852008  	100.723400 
2783.288915  	100.672913 
2784.725822  	100.662486 
2786.162729  	100.659748 
2787.599636  	100.624856 
2789.036543  	100.614629 
2790.473450  	100.593746 
2791.910357  	100.561526 
2793.347264  	100.561335 
2794.784171  	100.540714 
2796.221078  	100.518964 
2797.657985  	100.517278 
2799.094892  	100.486437 
2800.531799  	100.456856 
2801.968706  	100.442916 
2803.405613  	100.426877 
2804.842520  	100.402717 
2806.279427  	100.354421 
2807.716334  	100.340360 
2809.153241  	100.354136 
2810.590148  	100.320463 
2812.027056  	100.282058 
2813.463963  	100.242532 
2814.900870  	100.190094 
2816.337777  	100.183271 
2817.774684  	100.173373 
2819.211591  	100.133512 
2820.648498  	100.111881 
2822.085405  	100.082269 
2823.522312  	100.045272 
2824.959219  	100.010187 
2826.396126  	99.965910 
2827.833033  	99.954217 
2829.269940  	99.959705 
2830.706847  	99.932992 
2832.143754  	99.887741 
2833.580661  	99.860325 
2835.017568  	99.859045 
2836.454475  	99.822047 
2837.891382  	99.742132 
2839.328289  	99.699134 
2840.765196  	99.693285 
2842.202103  	99.690894 
2843.639010  	99.665009 
2845.075917  	99.604022 
2846.512824  	99.564650 
2847.949731  	99.526083 
2849.386638  	99.449420 
2850.823545  	99.395257 
2852.260452  	99.365313 
2853.697359  	99.336485 
2855.134266  	99.297877 
2856.571173  	99.233955 
2858.008080  	99.203727 
2859.444987  	99.190814 
2860.881895  	99.147563 
2862.318802  	99.124248 
2863.755709  	99.098187 
2865.192616  	99.058762 
2866.629523  	99.034899 
2868.066430  	98.982165 
2869.503337  	98.931903 
2870.940244  	98.888813 
2872.377151  	98.813040 
2873.814058  	98.777970 
2875.250965  	98.755995 
2876.687872  	98.692141 
2878.124779  	98.638909 
2879.561686  	98.569694 
2880.998593  	98.498338 
2882.435500  	98.455978 
2883.872407  	98.391116 
2885.309314  	98.344614 
2886.746221  	98.310103 
2888.183128  	98.234967 
2889.620035  	98.173245 
2891.056942  	98.113635 
2892.493849  	98.050513 
2893.930756  	98.011633 
2895.367663  	97.950706 
2896.804570  	97.883602 
2898.241477  	97.800180 
2899.678384  	97.692282 
2901.115291  	97.646979 
2902.552198  	97.601177 
2903.989105  	97.511609 
2905.426012  	97.467050 
2906.862919  	97.424155 
2908.299826  	97.356688 
2909.736733  	97.286926 
2911.173641  	97.203446 
2912.610548  	97.161638 
2914.047455  	97.108644 
2915.484362  	96.990258 
2916.921269  	96.907825 
2918.358176  	96.833677 
2919.795083  	96.718419 
2921.231990  	96.631650 
2922.668897  	96.570650 
2924.105804  	96.504788 
2925.542711  	96.422248 
2926.979618  	96.326949 
2928.416525  	96.232903 
2929.853432  	96.135506 
2931.290339  	96.076794 
2932.727246  	96.011211 
2934.164153  	95.878232 
2935.601060  	95.801018 
2937.037967  	95.781511 
2938.474874  	95.715092 
2939.911781  	95.620654 
2941.348688  	95.499515 
2942.785595  	95.398229 
2944.222502  	95.342086 
2945.659409  	95.246904 
2947.096316  	95.155755 
2948.533223  	95.076581 
2949.970130  	94.953448 
2951.407037  	94.854005 
2952.843944  	94.741610 
2954.280851  	94.584774 
2955.717758  	94.476854 
2957.154665  	94.386047 
2958.591572  	94.274459 
2960.028479  	94.151905 
2961.465387  	94.019488 
2962.902294  	93.935813 
2964.339201  	93.868232 
2965.776108  	93.756239 
2967.213015  	93.610894 
2968.649922  	93.442368 
2970.086829  	93.308700 
2971.523736  	93.179327 
2972.960643  	93.013828 
2974.397550  	92.905167 
2975.834457  	92.806701 
2977.271364  	92.677393 
2978.708271  	92.565245 
2980.145178  	92.388841 
2981.582085  	92.205338 
2983.018992  	92.105170 
2984.455899  	92.005043 
2985.892806  	91.915741 
2987.329713  	91.808290 
2988.766620  	91.657200 
2990.203527  	91.558798 
2991.640434  	91.432354 
2993.077341  	91.243626 
2994.514248  	91.094044 
2995.951155  	90.961351 
2997.388062  	90.840599 
2998.824969  	90.692345 
3000.261876  	90.498535 
3001.698783  	90.356137 
3003.135690  	90.198681 
3004.572597  	90.008459 
3006.009504  	89.866003 
3007.446411  	89.703793 
3008.883318  	89.554497 
3010.320226  	89.425127 
3011.757133  	89.235519 
3013.194040  	89.070340 
3014.630947  	88.913960 
3016.067854  	88.729674 
3017.504761  	88.576668 
3018.941668  	88.386231 
3020.378575  	88.195797 
3021.815482  	88.055007 
3023.252389  	87.878046 
3024.689296  	87.686565 
3026.126203  	87.464134 
3027.563110  	87.240866 
3029.000017  	87.085722 
3030.436924  	86.854373 
3031.873831  	86.590918 
3033.310738  	86.414126 
3034.747645  	86.212285 
3036.184552  	86.023872 
3037.621459  	85.850856 
3039.058366  	85.622526 
3040.495273  	85.424048 
3041.932180  	85.201714 
3043.369087  	84.936681 
3044.805994  	84.710694 
3046.242901  	84.475304 
3047.679808  	84.265864 
3049.116715  	84.063344 
3050.553622  	83.809181 
3051.990529  	83.587740 
3053.427436  	83.347119 
3054.864343  	83.090359 
3056.301250  	82.871454 
3057.738157  	82.596176 
3059.175064  	82.359321 
3060.611972  	82.168218 
3062.048879  	81.876825 
3063.485786  	81.586295 
3064.922693  	81.321837 
3066.359600  	81.063091 
3067.796507  	80.854227 
3069.233414  	80.596913 
3070.670321  	80.336965 
3072.107228  	80.103815 
3073.544135  	79.811725 
3074.981042  	79.536530 
3076.417949  	79.250588 
3077.854856  	78.951093 
3079.291763  	78.703551 
3080.728670  	78.397599 
3082.165577  	78.103718 
3083.602484  	77.845926 
3085.039391  	77.523893 
3086.476298  	77.275651 
3087.913205  	77.016691 
3089.350112  	76.661206 
3090.787019  	76.388037 
3092.223926  	76.107746 
3093.660833  	75.787087 
3095.097740  	75.488568 
3096.534647  	75.151578 
3097.971554  	74.877434 
3099.408461  	74.582195 
3100.845368  	74.221270 
3102.282275  	73.989461 
3103.719182  	73.708819 
3105.156089  	73.336546 
3106.592996  	73.041732 
3108.029903  	72.709888 
3109.466811  	72.407616 
3110.903718  	72.158272 
3112.340625  	71.827534 
3113.777532  	71.514010 
3115.214439  	71.173417 
3116.651346  	70.782071 
3118.088253  	70.456825 
3119.525160  	70.156991 
3120.962067  	69.889749 
3122.398974  	69.559081 
3123.835881  	69.176736 
3125.272788  	68.936115 
3126.709695  	68.660549 
3128.146602  	68.340571 
3129.583509  	68.080994 
3131.020416  	67.702140 
3132.457323  	67.347268 
3133.894230  	67.051442 
3135.331137  	66.683048 
3136.768044  	66.409439 
3138.204951  	66.083797 
3139.641858  	65.704791 
3141.078765  	65.484918 
3142.515672  	65.173713 
3143.952579  	64.808794 
3145.389486  	64.505142 
3146.826393  	64.142811 
3148.263300  	63.896785 
3149.700207  	63.633166 
3151.137114  	63.241824 
3152.574021  	62.957574 
3154.010928  	62.650370 
3155.447835  	62.362841 
3156.884742  	62.139590 
3158.321649  	61.781707 
3159.758557  	61.499985 
3161.195464  	61.238281 
3162.632371  	60.862076 
3164.069278  	60.597303 
3165.506185  	60.307367 
3166.943092  	60.022901 
3168.379999  	59.818413 
3169.816906  	59.470569 
3171.253813  	59.207228 
3172.690720  	59.014457 
3174.127627  	58.692625 
3175.564534  	58.461080 
3177.001441  	58.209014 
3178.438348  	57.920277 
3179.875255  	57.701038 
3181.312162  	57.389111 
3182.749069  	57.174845 
3184.185976  	56.979274 
3185.622883  	56.655044 
3187.059790  	56.502101 
3188.496697  	56.313524 
3189.933604  	56.045353 
3191.370511  	55.900630 
3192.807418  	55.635673 
3194.244325  	55.405117 
3195.681232  	55.234003 
3197.118139  	54.934884 
3198.555046  	54.792627 
3199.991953  	54.639786 
3201.428860  	54.396848 
3202.865767  	54.279438 
3204.302674  	54.048109 
3205.739581  	53.863820 
3207.176488  	53.769809 
3208.613395  	53.529787 
3210.050303  	53.443731 
3211.487210  	53.322654 
3212.924117  	53.049376 
3214.361024  	52.985054 
3215.797931  	52.853761 
3217.234838  	52.673908 
3218.671745  	52.608228 
3220.108652  	52.430221 
3221.545559  	52.365610 
3222.982466  	52.325637 
3224.419373  	52.138970 
3225.856280  	52.044602 
3227.293187  	51.884761 
3228.730094  	51.782621 
3230.167001  	51.809958 
3231.603908  	51.645905 
3233.040815  	51.563097 
3234.477722  	51.514470 
3235.914629  	51.335385 
3237.351536  	51.316875 
3238.788443  	51.229676 
3240.225350  	51.152567 
3241.662257  	51.249595 
3243.099164  	51.123097 
3244.536071  	51.021538 
3245.972978  	51.039372 
3247.409885  	50.932773 
3248.846792  	50.950605 
3250.283699  	50.941755 
3251.720606  	50.864927 
3253.157513  	50.875941 
3254.594420  	50.762958 
3256.031327  	50.753353 
3257.468234  	50.804597 
3258.905142  	50.691266 
3260.342049  	50.718282 
3261.778956  	50.703293 
3263.215863  	50.651536 
3264.652770  	50.782932 
3266.089677  	50.726233 
3267.526584  	50.660935 
3268.963491  	50.704742 
3270.400398  	50.581144 
3271.837305  	50.550531 
3273.274212  	50.537571 
3274.711119  	50.492022 
3276.148026  	50.601766 
3277.584933  	50.574973 
3279.021840  	50.566972 
3280.458747  	50.638184 
3281.895654  	50.535391 
3283.332561  	50.553873 
3284.769468  	50.571597 
3286.206375  	50.497239 
3287.643282  	50.577321 
3289.080189  	50.525994 
3290.517096  	50.482935 
3291.954003  	50.570084 
3293.390910  	50.502087 
3294.827817  	50.540625 
3296.264724  	50.577337 
3297.701631  	50.499215 
3299.138538  	50.580093 
3300.575445  	50.534062 
3302.012352  	50.477141 
3303.449259  	50.556134 
3304.886166  	50.460783 
3306.323073  	50.478996 
3307.759980  	50.532825 
3309.196888  	50.439435 
3310.633795  	50.523446 
3312.070702  	50.513392 
3313.507609  	50.470674 
3314.944516  	50.613143 
3316.381423  	50.581467 
3317.818330  	50.589126 
3319.255237  	50.631866 
3320.692144  	50.512942 
3322.129051  	50.570666 
3323.565958  	50.578720 
3325.002865  	50.509789 
3326.439772  	50.609812 
3327.876679  	50.568732 
3329.313586  	50.565808 
3330.750493  	50.648536 
3332.187400  	50.592495 
3333.624307  	50.655519 
3335.061214  	50.657942 
3336.498121  	50.605618 
3337.935028  	50.726117 
3339.371935  	50.699266 
3340.808842  	50.715492 
3342.245749  	50.822237 
3343.682656  	50.768112 
3345.119563  	50.842799 
3346.556470  	50.879404 
3347.993377  	50.829565 
3349.430284  	50.922419 
3350.867191  	50.883479 
3352.304098  	50.957497 
3353.741005  	51.147751 
3355.177912  	51.074895 
3356.614819  	51.124880 
3358.051726  	51.199224 
3359.488634  	51.126607 
3360.925541  	51.228614 
3362.362448  	51.277959 
3363.799355  	51.355946 
3365.236262  	51.523143 
3366.673169  	51.497516 
3368.110076  	51.601160 
3369.546983  	51.721388 
3370.983890  	51.713763 
3372.420797  	51.883693 
3373.857704  	51.953980 
3375.294611  	52.012003 
3376.731518  	52.203770 
3378.168425  	52.224167 
3379.605332  	52.348568 
3381.042239  	52.511585 
3382.479146  	52.540363 
3383.916053  	52.714454 
3385.352960  	52.802396 
3386.789867  	52.915368 
3388.226774  	53.177317 
3389.663681  	53.210407 
3391.100588  	53.292473 
3392.537495  	53.436932 
3393.974402  	53.497413 
3395.411309  	53.761295 
3396.848216  	53.913735 
3398.285123  	53.989618 
3399.722030  	54.201675 
3401.158937  	54.252442 
3402.595844  	54.453547 
3404.032751  	54.752605 
3405.469658  	54.833518 
3406.906565  	55.047228 
3408.343473  	55.217035 
3409.780380  	55.326177 
3411.217287  	55.611691 
3412.654194  	55.759135 
3414.091101  	55.944230 
3415.528008  	56.176525 
3416.964915  	56.257983 
3418.401822  	56.527987 
3419.838729  	56.759362 
3421.275636  	56.882235 
3422.712543  	57.164508 
3424.149450  	57.330956 
3425.586357  	57.565424 
3427.023264  	57.837932 
3428.460171  	57.899678 
3429.897078  	58.153909 
3431.333985  	58.414931 
3432.770892  	58.567747 
3434.207799  	58.882549 
3435.644706  	59.026349 
3437.081613  	59.195859 
3438.518520  	59.556393 
3439.955427  	59.748721 
3441.392334  	59.979760 
3442.829241  	60.199835 
3444.266148  	60.347513 
3445.703055  	60.621807 
3447.139962  	60.774387 
3448.576869  	61.021987 
3450.013776  	61.365898 
3451.450683  	61.477980 
3452.887590  	61.753586 
3454.324497  	62.052824 
3455.761404  	62.190546 
3457.198311  	62.487710 
3458.635219  	62.644553 
3460.072126  	62.791798 
3461.509033  	63.152797 
3462.945940  	63.334027 
3464.382847  	63.555470 
3465.819754  	63.836651 
3467.256661  	63.974895 
3468.693568  	64.193850 
3470.130475  	64.363998 
3471.567382  	64.632019 
3473.004289  	65.039145 
3474.441196  	65.183547 
3475.878103  	65.376784 
3477.315010  	65.648320 
3478.751917  	65.788931 
3480.188824  	66.065062 
3481.625731  	66.271171 
3483.062638  	66.467087 
3484.499545  	66.820315 
3485.936452  	66.985137 
3487.373359  	67.208105 
3488.810266  	67.485818 
3490.247173  	67.622642 
3491.684080  	67.963346 
3493.120987  	68.234999 
3494.557894  	68.369411 
3495.994801  	68.661453 
3497.431708  	68.829439 
3498.868615  	69.042917 
3500.305522  	69.367429 
3501.742429  	69.480856 
3503.179336  	69.624133 
3504.616243  	69.852624 
3506.053150  	70.148425 
3507.490058  	70.509420 
3508.926965  	70.646522 
3510.363872  	70.838485 
3511.800779  	71.171950 
3513.237686  	71.387219 
3514.674593  	71.723771 
3516.111500  	71.992955 
3517.548407  	72.129627 
3518.985314  	72.429715 
3520.422221  	72.680356 
3521.859128  	72.888408 
3523.296035  	73.054438 
3524.732942  	73.121226 
3526.169849  	73.410853 
3527.606756  	73.644735 
3529.043663  	73.803538 
3530.480570  	74.164611 
3531.917477  	74.365602 
3533.354384  	74.579575 
3534.791291  	74.872845 
3536.228198  	74.998188 
3537.665105  	75.350658 
3539.102012  	75.721615 
3540.538919  	75.903803 
3541.975826  	76.228173 
3543.412733  	76.473185 
3544.849640  	76.602773 
3546.286547  	76.797033 
3547.723454  	76.977092 
3549.160361  	77.268634 
3550.597268  	77.534763 
3552.034175  	77.656727 
3553.471082  	77.899497 
3554.907989  	78.206654 
3556.344896  	78.482821 
3557.781804  	78.799357 
3559.218711  	78.982836 
3560.655618  	79.200801 
3562.092525  	79.488253 
3563.529432  	79.770601 
3564.966339  	80.132556 
3566.403246  	80.189732 
3567.840153  	80.053098 
3569.277060  	80.334615 
3570.713967  	80.522149 
3572.150874  	80.728789 
3573.587781  	81.011677 
3575.024688  	81.249481 
3576.461595  	81.600436 
3577.898502  	81.839301 
3579.335409  	82.017999 
3580.772316  	82.345342 
3582.209223  	82.525796 
3583.646130  	82.720792 
3585.083037  	83.048191 
3586.519944  	83.251739 
3587.956851  	83.327878 
3589.393758  	83.316075 
3590.830665  	83.463321 
3592.267572  	83.757652 
3593.704479  	83.807927 
3595.141386  	83.957190 
3596.578293  	84.435497 
3598.015200  	84.637436 
3599.452107  	84.687181 
3600.889014  	84.781743 
3602.325921  	85.023866 
3603.762828  	85.473908 
3605.199735  	85.815714 
3606.636642  	86.152775 
3608.073550  	86.501336 
3609.510457  	86.520163 
3610.947364  	86.639319 
3612.384271  	86.872039 
3613.821178  	86.866712 
3615.258085  	86.921709 
3616.694992  	87.170737 
3618.131899  	87.505344 
3619.568806  	87.663508 
3621.005713  	87.625406 
3622.442620  	87.908309 
3623.879527  	88.294173 
3625.316434  	88.654963 
3626.753341  	89.221703 
3628.190248  	89.893609 
3629.627155  	90.031674 
3631.064062  	89.639955 
3632.500969  	89.459928 
3633.937876  	89.643100 
3635.374783  	89.778555 
3636.811690  	89.942936 
3638.248597  	90.484939 
3639.685504  	90.946349 
3641.122411  	91.189282 
3642.559318  	91.561751 
3643.996225  	91.875532 
3645.433132  	92.211142 
3646.870039  	92.870304 
3648.306946  	93.706080 
3649.743853  	93.791812 
3651.180760  	92.842292 
3652.617667  	92.737439 
3654.054574  	93.133903 
3655.491481  	93.266444 
3656.928389  	93.344724 
3658.365296  	93.726241 
3659.802203  	94.093727 
3661.239110  	94.534850 
3662.676017  	94.830253 
3664.112924  	95.184482 
3665.549831  	95.778153 
3666.986738  	96.262534 
3668.423645  	96.784893 
3669.860552  	97.369543 
3671.297459  	97.150856 
3672.734366  	96.862179 
3674.171273  	97.061452 
3675.608180  	97.151301 
3677.045087  	96.848552 
3678.481994  	96.960806 
3679.918901  	97.319491 
3681.355808  	97.523675 
3682.792715  	97.615367 
3684.229622  	98.145329 
3685.666529  	98.723264 
3687.103436  	99.245217 
3688.540343  	100.048822 
3689.977250  	99.969550 
3691.414157  	99.039338 
3692.851064  	98.558342 
3694.287971  	98.581151 
3695.724878  	98.805273 
3697.161785  	99.023043 
3698.598692  	99.321146 
3700.035599  	99.777550 
3701.472506  	100.055508 
3702.909413  	99.973260 
3704.346320  	99.859252 
3705.783227  	99.927731 
3707.220135  	100.225794 
3708.657042  	100.490985 
3710.093949  	100.750073 
3711.530856  	100.878797 
3712.967763  	100.103025 
3714.404670  	99.526325 
3715.841577  	99.670758 
3717.278484  	99.794253 
3718.715391  	99.886970 
3720.152298  	100.164248 
3721.589205  	100.298877 
3723.026112  	100.202116 
3724.463019  	100.071904 
3725.899926  	99.987469 
3727.336833  	100.011686 
3728.773740  	100.174427 
3730.210647  	100.496648 
3731.647554  	100.977728 
3733.084461  	101.043130 
3734.521368  	100.610671 
3735.958275  	100.143405 
3737.395182  	100.083981 
3738.832089  	100.188319 
3740.268996  	100.314393 
3741.705903  	100.810130 
3743.142810  	101.582471 
3744.579717  	102.363420 
3746.016624  	101.885021 
3747.453531  	101.369752 
3748.890438  	101.594052 
3750.327345  	101.753735 
3751.764252  	101.038530 
3753.201159  	100.773481 
3754.638066  	101.049416 
3756.074973  	101.165347 
3757.511881  	101.373832 
3758.948788  	101.478346 
3760.385695  	101.331268 
3761.822602  	101.430930 
3763.259509  	101.768043 
3764.696416  	101.990209 
3766.133323  	101.766061 
3767.570230  	101.614186 
3769.007137  	101.837995 
3770.444044  	101.708460 
3771.880951  	101.333385 
3773.317858  	101.371843 
3774.754765  	101.486164 
3776.191672  	101.520700 
3777.628579  	101.652457 
3779.065486  	101.911284 
3780.502393  	101.922279 
3781.939300  	101.545760 
3783.376207  	101.345674 
3784.813114  	101.303829 
3786.250021  	101.065237 
3787.686928  	100.981491 
3789.123835  	101.203846 
3790.560742  	101.329054 
3791.997649  	101.321679 
3793.434556  	101.479426 
3794.871463  	101.777440 
3796.308370  	101.861383 
3797.745277  	101.663450 
3799.182184  	101.969735 
3800.619091  	102.430013 
3802.055998  	101.567972 
3803.492905  	100.655120 
3804.929812  	101.087187 
3806.366720  	101.438315 
3807.803627  	101.007178 
3809.240534  	100.898633 
3810.677441  	101.295079 
3812.114348  	101.510907 
3813.551255  	101.584461 
3814.988162  	102.286665 
3816.425069  	102.856877 
3817.861976  	101.948240 
3819.298883  	101.695558 
3820.735790  	102.202988 
3822.172697  	101.468517 
3823.609604  	100.628657 
3825.046511  	100.859399 
3826.483418  	101.328153 
3827.920325  	101.375647 
3829.357232  	101.568811 
3830.794139  	102.121421 
3832.231046  	102.226396 
3833.667953  	101.924557 
3835.104860  	102.079018 
3836.541767  	102.328367 
3837.978674  	102.009678 
3839.415581  	101.333162 
3840.852488  	101.062945 
3842.289395  	101.095269 
3843.726302  	100.990547 
3845.163209  	100.994498 
3846.600116  	101.355894 
3848.037023  	101.685262 
3849.473930  	101.866153 
3850.910837  	102.181735 
3852.347744  	102.935658 
3853.784651  	103.142308 
3855.221558  	101.673359 
3856.658466  	101.083354 
3858.095373  	101.166708 
3859.532280  	101.336680 
3860.969187  	101.413730 
3862.406094  	101.666362 
3863.843001  	101.934831 
3865.279908  	101.843949 
3866.716815  	101.633978 
3868.153722  	101.712776 
3869.590629  	101.758587 
3871.027536  	101.362790 
3872.464443  	101.368485 
3873.901350  	101.496905 
3875.338257  	101.405545 
3876.775164  	101.419668 
3878.212071  	101.668291 
3879.648978  	101.851021 
3881.085885  	101.606404 
3882.522792  	101.594867 
3883.959699  	101.962073 
3885.396606  	101.910263 
3886.833513  	101.198399 
3888.270420  	101.262991 
3889.707327  	101.649490 
3891.144234  	101.699834 
3892.581141  	101.483957 
3894.018048  	101.544762 
3895.454955  	101.660308 
3896.891862  	101.663552 
3898.328769  	101.713059 
3899.765676  	101.942763 
3901.202583  	101.918532 
3902.639490  	101.594358 
3904.076397  	101.457763 
3905.513305  	101.304469 
3906.950212  	101.034929 
3908.387119  	101.096819 
3909.824026  	101.405960 
3911.260933  	101.652010 
3912.697840  	101.666214 
3914.134747  	101.714326 
3915.571654  	101.784054 
3917.008561  	101.754869 
3918.445468  	101.665725 
3919.882375  	101.657206 
3921.319282  	101.680088 
3922.756189  	101.683777 
3924.193096  	101.585798 
3925.630003  	101.450261 
3927.066910  	101.523211 
3928.503817  	101.594042 
3929.940724  	101.588880 
3931.377631  	101.589653 
3932.814538  	101.510760 
3934.251445  	101.449761 
3935.688352  	101.551828 
3937.125259  	101.591519 
3938.562166  	101.588971 
3939.999073  	101.649590 
3941.435980  	101.679102 
3942.872887  	101.612784 
3944.309794  	101.547084 
3945.746701  	101.571415 
3947.183608  	101.563952 
3948.620515  	101.443063 
3950.057422  	101.415665 
3951.494329  	101.516228 
3952.931236  	101.577232 
3954.368143  	101.611196 
3955.805051  	101.619576 
3957.241958  	101.595482 
3958.678865  	101.601796 
3960.115772  	101.650102 
3961.552679  	101.683161 
3962.989586  	101.617309 
3964.426493  	101.536852 
3965.863400  	101.610251 
3967.300307  	101.666119 
3968.737214  	101.635947 
3970.174121  	101.647373 
3971.611028  	101.667406 
3973.047935  	101.678741 
3974.484842  	101.616598 
3975.921749  	101.508018 
3977.358656  	101.565440 
3978.795563  	101.664595 
3980.232470  	101.652594 
3981.669377  	101.652498 
3983.106284  	101.674751 
3984.543191  	101.682900 
3985.980098  	101.696352 
3987.417005  	101.728874 
3988.853912  	101.736150 
3990.290819  	101.642891 
3991.727726  	101.632714 
3993.164633  	101.753950 
3994.601540  	101.747641 
3996.038447  	101.703891 
3997.475354  	101.739341 
3998.912261  	101.744172 
4000.349168  	101.772934 